Detailed Percentile spectrum:
     Value   Percentile   TotalCount 1/(1-Percentile)

     0.103     0.000000            1         1.00
     1.101     0.100000     15021984         1.11
     1.471     0.200000     29979112         1.25
     1.829     0.300000     44968471         1.43
     2.213     0.400000     59990532         1.67
     2.613     0.500000     74937187         2.00
     2.821     0.550000     82475379         2.22
     3.033     0.600000     89932014         2.50
     3.249     0.650000     97413363         2.86
     3.475     0.700000    104929134         3.33
     3.719     0.750000    112426922         4.00
     3.849     0.775000    116165489         4.44
     3.985     0.800000    119923241         5.00
     4.127     0.825000    123714864         5.71
     4.271     0.850000    127426148         6.67
     4.427     0.875000    131198887         8.00
     4.511     0.887500    133062593         8.89
     4.599     0.900000    134891086        10.00
     4.699     0.912500    136788876        11.43
     4.811     0.925000    138688128        13.33
     4.935     0.937500    140517565        16.00
     5.007     0.943750    141454012        17.78
     5.087     0.950000    142404524        20.00
     5.171     0.956250    143323791        22.86
     5.267     0.962500    144267448        26.67
     5.375     0.968750    145194236        32.00
     5.439     0.971875    145670924        35.56
     5.507     0.975000    146128970        40.00
     5.583     0.978125    146603387        45.71
     5.667     0.981250    147067692        53.33
     5.763     0.984375    147533235        64.00
     5.815     0.985938    147758780        71.11
     5.875     0.987500    147995198        80.00
     5.939     0.989062    148228417        91.43
     6.015     0.990625    148468899       106.67
     6.103     0.992188    148700536       128.00
     6.155     0.992969    148819558       142.22
     6.211     0.993750    148934622       160.00
     6.275     0.994531    149049003       182.86
     6.351     0.995313    149169409       213.33
     6.439     0.996094    149281522       256.00
     6.491     0.996484    149341064       284.44
     6.547     0.996875    149397899       320.00
     6.611     0.997266    149457125       365.71
     6.683     0.997656    149516817       426.67
     6.763     0.998047    149574088       512.00
     6.807     0.998242    149603993       568.89
     6.859     0.998437    149633956       640.00
     6.915     0.998633    149662201       731.43
     6.983     0.998828    149691530       853.33
     7.059     0.999023    149720261      1024.00
     7.103     0.999121    149735356      1137.78
     7.147     0.999219    149749655      1280.00
     7.199     0.999316    149764251      1462.86
     7.263     0.999414    149779150      1706.67
     7.331     0.999512    149793452      2048.00
     7.371     0.999561    149800456      2275.56
     7.419     0.999609    149807723      2560.00
     7.483     0.999658    149815226      2925.71
     7.551     0.999707    149822423      3413.33
     7.627     0.999756    149829668      4096.00
     7.679     0.999780    149833486      4551.11
     7.743     0.999805    149836939      5120.00
     7.815     0.999829    149840618      5851.43
     7.891     0.999854    149844307      6826.67
     7.987     0.999878    149847918      8192.00
     8.027     0.999890    149849768      9102.22
     8.071     0.999902    149851725     10240.00
     8.119     0.999915    149853478     11702.86
     8.179     0.999927    149855319     13653.33
     8.271     0.999939    149857197     16384.00
     8.319     0.999945    149858038     18204.44
     8.375     0.999951    149858997     20480.00
     8.431     0.999957    149859851     23405.71
     8.503     0.999963    149860766     27306.67
     8.567     0.999969    149861718     32768.00
     8.591     0.999973    149862104     36408.89
     8.623     0.999976    149862621     40960.00
     8.647     0.999979    149863051     46811.43
     8.679     0.999982    149863537     54613.33
     8.711     0.999985    149863969     65536.00
     8.743     0.999986    149864153     72817.78
     8.775     0.999988    149864403     81920.00
     8.831     0.999989    149864615     93622.86
     8.911     0.999991    149864870    109226.67
     9.023     0.999992    149865068    131072.00
     9.063     0.999993    149865226    145635.56
     9.079     0.999994    149865324    163840.00
     9.095     0.999995    149865422    187245.71
     9.119     0.999995    149865536    218453.33
     9.135     0.999996    149865650    262144.00
     9.151     0.999997    149865703    291271.11
     9.175     0.999997    149865762    327680.00
     9.199     0.999997    149865822    374491.43
     9.207     0.999998    149865867    436906.67
     9.215     0.999998    149865925    524288.00
     9.223     0.999998    149865954    582542.22
     9.239     0.999998    149865992    655360.00
     9.247     0.999999    149866014    748982.86
     9.255     0.999999    149866052    873813.33
     9.263     0.999999    149866076   1048576.00
     9.271     0.999999    149866097   1165084.44
     9.271     0.999999    149866097   1310720.00
     9.279     0.999999    149866114   1497965.71
     9.287     0.999999    149866132   1747626.67
     9.335     1.000000    149866142   2097152.00
     9.335     1.000000    149866142   2330168.89
     9.495     1.000000    149866149   2621440.00
     9.503     1.000000    149866170   2995931.43
     9.503     1.000000    149866170   3495253.33
     9.511     1.000000    149866171   4194304.00
     9.543     1.000000    149866181   4660337.78
     9.543     1.000000    149866181   5242880.00
     9.543     1.000000    149866181   5991862.86
     9.551     1.000000    149866202   6990506.67
     9.551     1.000000    149866202   8388608.00
     9.551     1.000000    149866202   9320675.55
     9.551     1.000000    149866202  10485760.00
     9.551     1.000000    149866202  11983725.71
     9.551     1.000000    149866202  13981013.34
     9.551     1.000000    149866202  16777216.00
     9.551     1.000000    149866202  18641351.10
     9.551     1.000000    149866202  20971519.98
     9.551     1.000000    149866202  23967451.45
     9.551     1.000000    149866202  27962026.68
     9.551     1.000000    149866202  33554432.00
     9.551     1.000000    149866202  37282702.28
     9.559     1.000000    149866206  41943039.96
     9.559     1.000000    149866206          inf
#[Mean    =        2.751, StdDeviation   =        1.334]
#[Max     =        9.552, Total count    =    149866206]
#[Buckets =           27, SubBuckets     =         2048]
